"File_250827_163335 - RawData"
"Wavelength nm."	"Abs."
350.00	0.3352
351.00	0.3375
352.00	0.3415
353.00	0.3472
354.00	0.3533
355.00	0.3600
356.00	0.3706
357.00	0.3826
358.00	0.3953
359.00	0.4106
360.00	0.4273
361.00	0.4426
362.00	0.4555
363.00	0.4610
364.00	0.4572
365.00	0.4448
366.00	0.4240
367.00	0.4016
368.00	0.3779
369.00	0.3564
370.00	0.3398
371.00	0.3265
372.00	0.3172
373.00	0.3097
374.00	0.3040
375.00	0.2995
376.00	0.2946
377.00	0.2896
378.00	0.2847
379.00	0.2801
380.00	0.2758
381.00	0.2723
382.00	0.2693
383.00	0.2665
384.00	0.2645
385.00	0.2616
386.00	0.2607
387.00	0.2594
388.00	0.2588
389.00	0.2577
390.00	0.2563
391.00	0.2560
392.00	0.2552
393.00	0.2544
394.00	0.2533
395.00	0.2530
396.00	0.2522
397.00	0.2519
398.00	0.2511
399.00	0.2511
400.00	0.2510
401.00	0.2515
402.00	0.2523
403.00	0.2526
404.00	0.2539
405.00	0.2553
406.00	0.2571
407.00	0.2586
408.00	0.2607
409.00	0.2627
410.00	0.2638
411.00	0.2652
412.00	0.2654
413.00	0.2656
414.00	0.2644
415.00	0.2626
416.00	0.2599
417.00	0.2567
418.00	0.2520
419.00	0.2473
420.00	0.2419
421.00	0.2360
422.00	0.2297
423.00	0.2236
424.00	0.2170
425.00	0.2104
426.00	0.2046
427.00	0.1989
428.00	0.1933
429.00	0.1879
430.00	0.1827
431.00	0.1780
432.00	0.1736
433.00	0.1700
434.00	0.1661
435.00	0.1632
436.00	0.1597
437.00	0.1570
438.00	0.1544
439.00	0.1518
440.00	0.1496
441.00	0.1476
442.00	0.1458
443.00	0.1440
444.00	0.1425
445.00	0.1406
446.00	0.1388
447.00	0.1373
448.00	0.1361
449.00	0.1344
450.00	0.1328
451.00	0.1317
452.00	0.1299
453.00	0.1285
454.00	0.1269
455.00	0.1255
456.00	0.1236
457.00	0.1220
458.00	0.1200
459.00	0.1184
460.00	0.1166
461.00	0.1150
462.00	0.1129
463.00	0.1112
464.00	0.1094
465.00	0.1077
466.00	0.1058
467.00	0.1044
468.00	0.1025
469.00	0.1012
470.00	0.1000
471.00	0.0984
472.00	0.0970
473.00	0.0960
474.00	0.0947
475.00	0.0936
476.00	0.0926
477.00	0.0912
478.00	0.0902
479.00	0.0895
480.00	0.0887
481.00	0.0878
482.00	0.0875
483.00	0.0867
484.00	0.0862
485.00	0.0856
486.00	0.0852
487.00	0.0847
488.00	0.0843
489.00	0.0841
490.00	0.0837
491.00	0.0836
492.00	0.0833
493.00	0.0830
494.00	0.0830
495.00	0.0828
496.00	0.0828
497.00	0.0830
498.00	0.0827
499.00	0.0830
500.00	0.0829
501.00	0.0836
502.00	0.0834
503.00	0.0837
504.00	0.0841
505.00	0.0842
506.00	0.0846
507.00	0.0847
508.00	0.0851
509.00	0.0854
510.00	0.0859
511.00	0.0863
512.00	0.0866
513.00	0.0873
514.00	0.0877
515.00	0.0882
516.00	0.0886
517.00	0.0895
518.00	0.0901
519.00	0.0906
520.00	0.0914
521.00	0.0920
522.00	0.0929
523.00	0.0933
524.00	0.0942
525.00	0.0949
526.00	0.0957
527.00	0.0966
528.00	0.0975
529.00	0.0984
530.00	0.0993
531.00	0.1000
532.00	0.1010
533.00	0.1021
534.00	0.1033
535.00	0.1045
536.00	0.1055
537.00	0.1073
538.00	0.1086
539.00	0.1098
540.00	0.1112
541.00	0.1127
542.00	0.1142
543.00	0.1158
544.00	0.1175
545.00	0.1189
546.00	0.1207
547.00	0.1226
548.00	0.1242
549.00	0.1260
550.00	0.1279
551.00	0.1297
552.00	0.1316
553.00	0.1337
554.00	0.1357
555.00	0.1379
556.00	0.1401
557.00	0.1423
558.00	0.1449
559.00	0.1466
560.00	0.1489
561.00	0.1511
562.00	0.1534
563.00	0.1557
564.00	0.1578
565.00	0.1599
566.00	0.1622
567.00	0.1645
568.00	0.1668
569.00	0.1694
570.00	0.1716
571.00	0.1743
572.00	0.1764
573.00	0.1793
574.00	0.1821
575.00	0.1848
576.00	0.1876
577.00	0.1905
578.00	0.1936
579.00	0.1965
580.00	0.2001
581.00	0.2037
582.00	0.2070
583.00	0.2107
584.00	0.2144
585.00	0.2182
586.00	0.2220
587.00	0.2260
588.00	0.2301
589.00	0.2345
590.00	0.2386
591.00	0.2433
592.00	0.2481
593.00	0.2528
594.00	0.2575
595.00	0.2628
596.00	0.2679
597.00	0.2731
598.00	0.2784
599.00	0.2842
600.00	0.2896
601.00	0.2957
602.00	0.3018
603.00	0.3076
604.00	0.3138
605.00	0.3198
606.00	0.3259
607.00	0.3321
608.00	0.3385
609.00	0.3449
610.00	0.3514
611.00	0.3581
612.00	0.3653
613.00	0.3724
614.00	0.3793
615.00	0.3863
616.00	0.3937
617.00	0.4008
618.00	0.4077
619.00	0.4151
620.00	0.4222
621.00	0.4293
622.00	0.4367
623.00	0.4442
624.00	0.4513
625.00	0.4590
626.00	0.4661
627.00	0.4734
628.00	0.4810
629.00	0.4884
630.00	0.4959
631.00	0.5037
632.00	0.5113
633.00	0.5188
634.00	0.5266
635.00	0.5345
636.00	0.5428
637.00	0.5506
638.00	0.5585
639.00	0.5675
640.00	0.5759
641.00	0.5848
642.00	0.5940
643.00	0.6031
644.00	0.6130
645.00	0.6228
646.00	0.6327
647.00	0.6431
648.00	0.6534
649.00	0.6638
650.00	0.6744
651.00	0.6860
652.00	0.6972
653.00	0.7093
654.00	0.7214
655.00	0.7337
656.00	0.7464
657.00	0.7600
658.00	0.7735
659.00	0.7865
660.00	0.8005
661.00	0.8139
662.00	0.8287
663.00	0.8433
664.00	0.8576
665.00	0.8725
666.00	0.8872
667.00	0.9017
668.00	0.9174
669.00	0.9327
670.00	0.9484
671.00	0.9641
672.00	0.9801
673.00	0.9962
674.00	1.0127
675.00	1.0279
676.00	1.0435
677.00	1.0595
678.00	1.0750
679.00	1.0922
680.00	1.1069
681.00	1.1216
682.00	1.1370
683.00	1.1522
684.00	1.1665
685.00	1.1821
686.00	1.1959
687.00	1.2107
688.00	1.2243
689.00	1.2371
690.00	1.2500
691.00	1.2624
692.00	1.2737
693.00	1.2854
694.00	1.2954
695.00	1.3073
696.00	1.3173
697.00	1.3273
698.00	1.3387
699.00	1.3481
700.00	1.3592
701.00	1.3690
702.00	1.3802
703.00	1.3902
704.00	1.4014
705.00	1.4129
706.00	1.4251
707.00	1.4376
708.00	1.4507
709.00	1.4643
710.00	1.4808
711.00	1.4964
712.00	1.5148
713.00	1.5349
714.00	1.5552
715.00	1.5784
716.00	1.6029
717.00	1.6291
718.00	1.6566
719.00	1.6860
720.00	1.7200
721.00	1.7544
722.00	1.7916
723.00	1.8295
724.00	1.8711
725.00	1.9142
726.00	1.9569
727.00	2.0049
728.00	2.0527
729.00	2.1061
730.00	2.1588
731.00	2.2080
732.00	2.2657
733.00	2.3198
734.00	2.3706
735.00	2.4270
736.00	2.4844
737.00	2.5403
738.00	2.5917
739.00	2.6479
740.00	2.7018
741.00	2.7481
742.00	2.7995
743.00	2.8455
744.00	2.8854
745.00	2.9245
746.00	2.9600
747.00	2.9961
748.00	3.0211
749.00	3.0504
750.00	3.0690
751.00	3.0882
752.00	3.1047
753.00	3.1165
754.00	3.1282
755.00	3.1316
756.00	3.1448
757.00	3.1516
758.00	3.1587
759.00	3.1582
760.00	3.1551
761.00	3.3247
762.00	3.3228
763.00	3.3131
764.00	3.3081
765.00	3.2945
766.00	3.2798
767.00	3.2613
768.00	3.2466
769.00	3.2187
770.00	3.2009
771.00	3.1738
772.00	3.1407
773.00	3.0907
774.00	3.0542
775.00	2.9982
776.00	2.9336
777.00	2.8612
778.00	2.7870
779.00	2.6878
780.00	2.5907
781.00	2.4911
782.00	2.3821
783.00	2.2680
784.00	2.1514
785.00	2.0411
786.00	1.9286
787.00	1.8189
788.00	1.7109
789.00	1.6119
790.00	1.5106
791.00	1.4120
792.00	1.3202
793.00	1.2320
794.00	1.1508
795.00	1.0704
796.00	0.9934
797.00	0.9259
798.00	0.8560
799.00	0.7918
800.00	0.7340
801.00	0.6789
802.00	0.6296
803.00	0.5831
804.00	0.5396
805.00	0.4980
806.00	0.4608
807.00	0.4255
808.00	0.3959
809.00	0.3654
810.00	0.3384
811.00	0.3131
812.00	0.2885
813.00	0.2677
814.00	0.2479
815.00	0.2291
816.00	0.2137
817.00	0.1988
818.00	0.1832
819.00	0.1705
820.00	0.1592
821.00	0.1467
822.00	0.1358
823.00	0.1265
824.00	0.1175
825.00	0.1086
826.00	0.1007
827.00	0.0934
828.00	0.0864
829.00	0.0802
830.00	0.0748
831.00	0.0699
832.00	0.0652
833.00	0.0607
834.00	0.0567
835.00	0.0543
836.00	0.0506
837.00	0.0464
838.00	0.0445
839.00	0.0423
840.00	0.0390
841.00	0.0385
842.00	0.0359
843.00	0.0342
844.00	0.0318
845.00	0.0326
846.00	0.0311
847.00	0.0298
848.00	0.0290
849.00	0.0265
850.00	0.0263
851.00	0.0251
852.00	0.0274
853.00	0.0238
854.00	0.0240
855.00	0.0241
856.00	0.0238
857.00	0.0246
858.00	0.0241
859.00	0.0276
860.00	0.0287
861.00	0.0230
862.00	0.0247
863.00	0.0245
864.00	0.0251
865.00	0.0246
866.00	0.0236
867.00	0.0312
868.00	0.0273
869.00	0.0263
870.00	0.0316
871.00	0.0343
872.00	0.0337
873.00	0.0331
874.00	0.0382
875.00	0.0384
876.00	0.0417
877.00	0.0423
878.00	0.0439
879.00	0.0479
880.00	0.0481
881.00	0.0578
882.00	0.0533
883.00	0.0553
884.00	0.0641
885.00	0.0656
886.00	0.0656
887.00	0.0682
888.00	0.0826
889.00	0.0843
890.00	0.0775
891.00	0.0898
892.00	0.0862
893.00	0.0907
894.00	0.1016
895.00	0.1034
896.00	0.1022
897.00	0.1170
898.00	0.1167
899.00	0.1109
900.00	0.1186
